Folder: ElectrochemSequencer/Raw Electrochem Data/Oligomer 1/Blank electrolyte

Note: README.md
# Electrochemical Sequencing Scripts

This repository contains scripts for encoding and decoding sequences via electrochemical methods. These scripts are implemented in Jupyter notebooks and are designed for use in a chemistry research setting.

## Table of Contents
- [Overview](#overview)
- [Files in This Repository](#files-in-this-repository)
- [Prerequisites and Setup](#prerequisites-and-setup)
- [Instructions for Use](#instructions-for-use)

## Overview
The **Encoding Script** and **Decoding Script** provided in this repository are used for encoding information into sequences based on the provided oligomer library and assigned ASCII characters to these oligomers, and decoding it back to retrieve the original data using DPV raw data after oligomer degradation. This system leverages specific data patterns for sequence matching and recognition.

## Files in This Repository
1. **Encoding Script.ipynb**: This script is used to encode sequences by assigning specific electrochemical signatures to unique identifiers.
2. **Decoding Script.ipynb**: This script decodes the sequences by analyzing electrochemical signatures and extracting the original encoded data.
3. **Folders for Raw and Processed data**: This repo contains all the necessary folders and subfolders as well as necessary excel files to run the sequencing script successfully. It is recommended that you follow this folder structure and naming convention for raw oligomer data for successful execution of the script as is. If you want to change the data structure and/or file types, please update the script accordingly. 

## Prerequisites and Setup
To set up the environment for running these scripts, please install the required libraries. 

### Libraries Required
The following Python libraries are needed:
- `numpy`
- `pandas`
- `matplotlib`
- `scipy`
- `sklearn`

### Installation
If you have Python installed, you can install the required libraries with the following commands:

```bash
pip install numpy pandas matplotlib scipy scikit-learn
```

Alternatively, you can create a virtual environment and install the libraries within that environment:

```bash
# Create a virtual environment
python -m venv env

# Activate the virtual environment
# On Windows
env\Scripts\activate
# On macOS/Linux
source env/bin/activate

# Install the required libraries
pip install numpy pandas matplotlib scipy scikit-learn
```

## Instructions for Use

1. **Encoding Sequence Data**
   - Open the **Encoding Script.ipynb** notebook.
   - Follow the instructions in the notebook to input your data and generate encoded sequences.
   - Run all cells in the notebook to execute the encoding steps.

2. **Decoding Sequence Data**
   - Open the **Decoding Script.ipynb** notebook.
   - Use the raw DPV data for oligomer (12 data sets after degradation per oligomers) as input for the decoding process.
   - Run all cells in the notebook to decode and retrieve the original sequence data.

---

This README provides essential details for

File: CV_100mVps.txt
Potential - Start -0.2 V, Upper Vertex 1.5 V, Lower Vertex -0.2 V, Stop -0.19 V; Scan - # end cross 5, Rate 0.1 Vps, Step 0.01 V
Scan	Index	Time (s)	Potential applied (V)	WE(1).Potential (V)	WE(1).Current (A)	WE(1).Power (W)	WE(1).Resistance (Ω)	WE(1).Charge (C)
1	1	74.4017	-0.189972	-0.189911	-1.58081e-07	3.00213e-08	1201351.375	0
1	7	75.006	-0.129547	-0.129425	-3.69263e-08	4.77918e-09	3504958.75	-5.35226e-08
1	13	75.6102	-0.0691223	-0.0690613	5.31006e-08	-3.66719e-09	-1300574.75	-5.06183e-08
1	19	76.2145	-0.00869751	-0.00860596	3.59192e-07	-3.09119e-09	-23959.2	4.92814e-08
1	25	76.8187	0.0517273	0.0518188	1.43494e-06	7.43568e-08	36112.3	5.61934e-07
1	31	77.423	0.112152	0.112152	1.73981e-06	1.95123e-07	64462.375	1.5993e-06
1	37	78.0272	0.172577	0.172607	1.38062e-06	2.38304e-07	125022	2.53817e-06
1	43	78.6315	0.233002	0.232971	1.17096e-06	2.728e-07	198958	3.30191e-06
1	49	79.2357	0.293427	0.293396	1.05682e-06	3.10068e-07	277621	3.97218e-06
1	55	79.84	0.353851	0.353821	9.82666e-07	3.47688e-07	360062.125	4.58724e-06
1	61	80.4442	0.414276	0.414276	9.34753e-07	3.87246e-07	443193	5.1656e-06
1	67	81.0484	0.474701	0.47464	9.05457e-07	4.29766e-07	524200	5.72087e-06
1	73	81.6527	0.535126	0.535126	8.86841e-07	4.74571e-07	603406.75	6.2618e-06
1	79	82.2569	0.595551	0.59549	8.74023e-07	5.20472e-07	681320	6.79333e-06
1	85	82.8612	0.655975	0.655975	8.70667e-07	5.71136e-07	753417	7.31994e-06
1	91	83.4654	0.7164	0.716278	8.79211e-07	6.2976e-07	814682.375	7.8481e-06
1	97	84.0697	0.776825	0.776978	8.96301e-07	6.96406e-07	866871	8.38412e-06
1	103	84.6739	0.83725	0.837097	9.17664e-07	7.68174e-07	912204.875	8.93189e-06
1	109	85.2782	0.897675	0.897827	9.46655e-07	8.49933e-07	948420	9.495e-06
1	115	85.8824	0.958099	0.957642	9.78699e-07	9.37243e-07	978485	1.00769e-05
1	121	86.4867	1.01852	1.01837	1.00189e-06	1.0203e-06	1016448.375	1.06759e-05
1	127	87.0909	1.07895	1.07941	1.01166e-06	1.09199e-06	1066968.375	1.12845e-05
1	133	87.6952	1.13937	1.13983	1.02356e-06	1.16669e-06	1113595.75	1.18988e-05
1	139	88.2994	1.1998	1.19965	1.04828e-06	1.25756e-06	1144395.875	1.25246e-05
1	145	88.9037	1.26022	1.26007	1.07697e-06	1.35705e-06	1170019.875	1.31666e-05
1	151	89.5079	1.32065	1.32019	1.10535e-06	1.45927e-06	1194367.75	1.38255e-05
1	157	90.1122	1.38107	1.38092	1.14288e-06	1.57823e-06	1208277.625	1.45041e-05
1	163	90.7164	1.4415	1.44135	1.19324e-06	1.71987e-06	1207928.375	1.52097e-05
1	169	91.3207	1.50192	1.50146	1.2439e-06	1.86767e-06	1207065.75	1.59465e-05
1	175	91.9249	1.4415	1.44165	9.18274e-07	1.32383e-06	1569956.875	1.65774e-05
1	181	92.5292	1.38107	1.38092	7.86438e-07	1.08601e-06	1755917.75	1.70888e-05
1	187	93.1334	1.32065	1.3208	7.01599e-07	9.26673e-07	1882557.625	1.75371e-05
1	193	93.7377	1.26022	1.26007	6.32935e-07	7.97542e-07	1990839.125	1.79398e-05
1	199	94.3419	1.1998	1.19965	5.69763e-07	6.83514e-07	2105516.75	1.83025e-05
1	205	94.9462	1.13937	1.13922	5.16052e-07	5.87898e-07	2207569.5	1.86301e-05
1	211	95.5504	1.07895	1.0791	4.67834e-07	5.04841e-07	2306588.5	1.89275e-05
1	217	96.1546	1.01852	1.01837	4.13208e-07	4.20799e-07	2464549.5	1.91938e-05
1	223	96.7589	0.958099	0.957947	3.61633e-07	3.46425e-07	2648945.25	1.94273e-05
1	229	97.3631	0.897675	0.897217	3.21655e-07	2.88595e-07	2789373.75	1.96331e-05
1	235	97.9674	0.83725	0.837402	2.96631e-07	2.48399e-07	2823045.5	1.98196e-05
1	241	98.5716	0.776825	0.776978	2.771e-07	2.153e-07	2803964.75	1.99928e-05
1	247	99.1759	0.7164	0.716309	2.61536e-07	1.8734e-07	2738856.5	2.01552e-05
1	253	99.7801	0.655975	0.655914	2.50549e-07	1.64339e-07	2617905	2.03098e-05
1	259	100.384	0.595551	0.59552	2.45361e-07	1.46118e-07	2427114.5	2.04596e-05
1	265	100.989	0.535126	0.535126	2.37732e-07	1.27216e-07	2250962.75	2.06056e-05
1	271	101.593	0.474701	0.474548	2.27661e-07	1.08036e-07	2084450.375	2.0746e-05
1	277	102.197	0.414276	0.414246	2.16675e-07	8.97566e-08	1911831	2.088e-05
1	283	102.801	0.353851	0.353851	2.09961e-07	7.4295e-08	1685319.875	2.1009e-05
1	289	103.406	0.293427	0.293396	1.98059e-07	5.81097e-08	1481355.875	2.11329e-05
1	295	104.01	0.233002	0.233002	1.77612e-07	4.1384e-08	1311855.625	2.1247e-05
1	301	104.614	0.172577	0.172546	1.34583e-07	2.32217e-08	1282086.125	2.13433e-05
1	307	105.218	0.112152	0.112244	-7.65991e-08	-8.59777e-09	-1465338.625	2.13793e-05
1	313	105.823	0.0517273	0.0517883	-1.03638e-06	-5.36722e-08	-49970.6	2.10902e-05
1	319	106.427	-0.00869751	-0.00865173	-1.64642e-06	1.42444e-08	5254.87	2.01965e-05
1	325	107.031	-0.0691223	-0.0690918	-1.27869e-06	8.83467e-08	54033.4	1.93088e-05
1	331	107.635	-0.129547	-0.129456	-1.03943e-06	1.3456e-07	124545	1.86171e-05
1	337	108.24	-0.189972	-0.189819	-9.34448e-07	1.77376e-07	203135	1.80254e-05
2	343	108.844	-0.149689	-0.149506	-5.41382e-07	8.09396e-08	276156	1.7582e-05
2	349	109.448	-0.0892639	-0.0891724	-3.26233e-07	2.9091e-08	273340	1.73237e-05
2	355	110.052	-0.0288391	-0.0287689	-5.52368e-08	1.5891e-09	520828.75	1.71964e-05
2	361	110.657	0.0315857	0.0316528	8.6731e-07	2.74528e-08	36495.4	1.73935e-05
2	367	111.261	0.0920105	0.092041	1.65924e-06	1.52718e-07	55471.8	1.82332e-05
2	373	111.865	0.152435	0.152466	1.35376e-06	2.06402e-07	112624	1.9155e-05
2	379	112.469	0.21286	0.212799	1.11481e-06	2.3723e-07	190884	1.98928e-05
2	385	113.074	0.273285	0.273285	9.8877e-07	2.70216e-07	276388.875	2.05248e-05
2	391	113.678	0.33371	0.333679	9.15833e-07	3.05594e-07	364345	2.10986e-05
2	397	114.282	0.394135	0.394073	8.74329e-07	3.4455e-07	450716	2.16384e-05
2	403	114.886	0.454559	0.45459	8.48694e-07	3.85808e-07	535635	2.21584e-05
2	409	115.491	0.514984	0.514954	8.28552e-07	4.26666e-07	621510.125	2.26646e-05
2	415	116.095	0.575409	0.575378	8.18481e-07	4.70937e-07	702982.875	2.31616e-05
2	421	116.699	0.635834	0.635712	8.20618e-07	5.21676e-07	774674.625	2.36564e-05
2	427	117.303	0.696259	0.696167	8.31299e-07	5.78723e-07	837445	2.41553e-05
2	433	117.908	0.756683	0.756531	8.48083e-07	6.41601e-07	892048	2.46622e-05
2	439	118.512	0.817108	0.81665	8.73718e-07	7.13522e-07	934684	2.51818e-05
2	445	119.116	0.877533	0.87738	9.07593e-07	7.96304e-07	966711.5	2.57198e-05
2	451	119.72	0.937958	0.9375	9.45129e-07	8.86059e-07	991928	2.62796e-05
2	457	120.325	0.998383	0.99823	9.77478e-07	9.75748e-07	1.02123e+06	2.68606e-05
2	463	120.929	1.05881	1.05835	9.99756e-07	1.05809e-06	1058608.125	2.74584e-05
2	469	121.533	1.11923	1.11908	1.01166e-06	1.13213e-06	1106184	2.80666e-05
2	475	122.137	1.17966	1.1792	1.02356e-06	1.20698e-06	1152057.25	2.8681e-05
2	481	122.742	1.24008	1.23993	1.04279e-06	1.29298e-06	1189054.75	2.93048e-05
2	487	123.346	1.30051	1.30066	1.06598e-06	1.38648e-06	1220154.625	2.99417e-05
2	493	123.95	1.36093	1.36108	1.09406e-06	1.4891e-06	1244072.5	3.05941e-05
2	499	124.554	1.42136	1.4212	1.13434e-06	1.61213e-06	1252892.125	3.12667e-05
2	505	125.159	1.48178	1.48163	1.18103e-06	1.74985e-06	1254522	3.19662e-05
2	511	125.763	1.46164	1.46179	9.40552e-07	1.37489e-06	1554185.625	3.26267e-05
2	517	126.367	1.40121	1.40137	7.79114e-07	1.09182e-06	1798668.25	3.31409e-05
2	523	126.971	1.34079	1.34064	6.79016e-07	9.10314e-07	1974382.125	3.35794e-05
2	529	127.576	1.28036	1.28021	6.00281e-07	7.68487e-07	2132689.25	3.39649e-05
2	535	128.18	1.21994	1.21979	5.33447e-07	6.50692e-07	2286613.5	3.43068e-05
2	541	128.784	1.15952	1.15936	4.81567e-07	5.58311e-07	2407477.75	3.4613e-05
2	547	129.388	1.09909	1.09955	4.3396e-07	4.7716e-07	2533755.5	3.48898e-05
2	553	129.993	1.03867	1.03851	3.74756e-07	3.89189e-07	2771172.75	3.51344e-05
2	559	130.597	0.978241	0.978088	3.2135e-07	3.14309e-07	3043684.75	3.53438e-05
2	565	131.201	0.917816	0.917969	2.8595e-07	2.62493e-07	3210245.5	3.55267e-05
2	571	131.805	0.857391	0.857239	2.61841e-07	2.2446e-07	3273892.75	3.56919e-05
2	577	132.41	0.796967	0.796814	2.4353e-07	1.94048e-07	3271929.75	3.58444e-05
2	583	133.014	0.736542	0.736359	2.30408e-07	1.69663e-07	3195894.25	3.59875e-05
2	589	133.618	0.676117	0.675995	2.24609e-07	1.51835e-07	3009646.75	3.61247e-05
2	595	134.222	0.615692	0.615662	2.19421e-07	1.35089e-07	2805841.5	3.62588e-05
2	601	134.827	0.555267	0.555237	2.12097e-07	1.17764e-07	2617841.75	3.63895e-05
2	607	135.431	0.494843	0.494812	2.04773e-07	1.01324e-07	2416393.5	3.65156e-05
2	613	136.035	0.434418	0.434357	1.98364e-07	8.61608e-08	2189692.5	3.66373e-05
2	619	136.639	0.373993	0.373932	1.9043e-07	7.12077e-08	1963621.75	3.67546e-05
2	625	137.244	0.313568	0.313599	1.79749e-07	5.63689e-08	1744652	3.68669e-05
2	631	137.848	0.253143	0.253113	1.62354e-07	4.10938e-08	1559022.5	3.69708e-05
2	637	138.452	0.192719	0.192719	1.33362e-07	2.57013e-08	1445080.125	3.70611e-05
2	643	139.056	0.132294	0.132324	2.16675e-08	2.86713e-09	6107042.5	3.7117e-05
2	649	139.661	0.0718689	0.0719604	-6.22559e-07	-4.47996e-08	-115588	3.69826e-05
2	655	140.265	0.0114441	0.0115662	-1.67511e-06	-1.93746e-08	-6904.72	3.62455e-05
2	661	140.869	-0.0489807	-0.0488312	-1.45081e-06	7.08445e-08	33658	3.52664e-05
2	667	141.473	-0.109406	-0.109344	-1.14594e-06	1.25302e-07	95419.4	3.44922e-05
2	673	142.077	-0.16983	-0.169678	-1.00677e-06	1.70827e-07	168536	3.38478e-05
2	677	142.48	-0.189972	-0.18988	-8.39844e-07	1.5947e-07	226090.125	3.34578e-05

File: DPV_Anodic_Trace.txt
Potential - Start -0.205 V, Stop 1.505 V, Step 0.005 V; Modulation - Amplitude 0.05 V, Time 0.025 s, Interval time 0.05 s
Index	Base.Time (s)	Potential applied (V)	WE(1).Base.Potential (V)	WE(1).Base.Current (A)	WE(1).Pulse.Current (A)	WE(1).δ.Current (A)	WE(1).Base.Power (W)	WE(1).Base.Resistance (Ω)	WE(1).Base.Charge (C)
1	148.696	-0.204926		-3.36914e-07	4.29382e-07	7.66296e-07	6.90114e-08	607971	0
5	148.896	-0.184784		-5.72205e-07	4.15955e-07	9.88159e-07	1.05647e-07	322667	-1.1071e-07
9	149.096	-0.164642		-5.34668e-07	4.63562e-07	9.9823e-07	8.798e-08	307763	-2.21191e-07
13	149.296	-0.144501		-5.08118e-07	5.17273e-07	1.02539e-06	7.33458e-08	284084	-3.25279e-07
17	149.496	-0.124359		-4.9408e-07	5.92041e-07	1.08612e-06	6.14282e-08	251637	-4.25285e-07
21	149.696	-0.104218		-4.98962e-07	7.15027e-07	1.21399e-06	5.20006e-08	208869	-5.24178e-07
25	149.896	-0.0840759		-5.39856e-07	9.33228e-07	1.47308e-06	4.53559e-08	155625	-6.27419e-07
29	150.096	-0.0639343		-6.36902e-07	1.3269e-06	1.96381e-06	4.07393e-08	100431	-7.4398e-07
33	150.296	-0.0437927		-8.19702e-07	1.96686e-06	2.78656e-06	3.57794e-08	53250.2	-8.88107e-07
37	150.496	-0.0236511		-1.07666e-06	2.84332e-06	3.91998e-06	2.53065e-08	21831.1	-1.07712e-06
41	150.696	-0.00350952		-1.29578e-06	3.78754e-06	5.08331e-06	4.4052e-09	2623.65	-1.31645e-06
45	150.896	0.0166321		-1.27655e-06	4.50134e-06	5.77789e-06	-2.12862e-08	-13062.4	-1.57847e-06
49	151.096	0.0367737		-9.42993e-07	4.6814e-06	5.62439e-06	-3.47119e-08	-39035.6	-1.80493e-06
53	151.296	0.0569153		-3.94897e-07	4.27551e-06	4.67041e-06	-2.24878e-08	-144204	-1.94073e-06
57	151.496	0.0770569		1.76697e-07	3.57361e-06	3.39691e-06	1.36319e-08	436614.875	-1.96134e-06
61	151.696	0.0971985		6.04248e-07	2.92175e-06	2.3175e-06	5.87689e-08	160960	-1.88011e-06
65	151.896	0.11734		8.3313e-07	2.4527e-06	1.61957e-06	9.77595e-08	140842	-1.73351e-06
69	152.096	0.137482		9.14612e-07	2.14355e-06	1.22894e-06	1.25687e-07	150250.25	-1.55697e-06
73	152.296	0.157623		9.17969e-07	1.94275e-06	1.02478e-06	1.44693e-07	171709	-1.37296e-06
77	152.496	0.177765		8.90808e-07	1.80573e-06	9.14917e-07	1.58436e-07	199657	-1.19186e-06
81	152.696	0.197906		8.55713e-07	1.70776e-06	8.52051e-07	1.69377e-07	231312	-1.01717e-06
85	152.896	0.218048		8.21533e-07	1.63208e-06	8.10547e-07	1.79109e-07	265379	-8.49487e-07
89	153.096	0.23819		7.91626e-07	1.57135e-06	7.79724e-07	1.88485e-07	300771	-6.88217e-07
93	153.296	0.258331		7.66907e-07	1.52039e-06	7.53479e-07	1.98069e-07	336769	-5.32402e-07
97	153.496	0.278473		7.45239e-07	1.47797e-06	7.32727e-07	2.07506e-07	373628	-3.81226e-07
101	153.696	0.298615		7.26624e-07	1.44043e-06	7.13806e-07	2.17025e-07	411046	-2.34062e-07
105	153.896	0.318756		7.10754e-07	1.40747e-06	6.96716e-07	2.26579e-07	448519	-9.03549e-08
109	154.096	0.338898		6.96716e-07	1.38e-06	6.83289e-07	2.36073e-07	486334	5.03922e-08
113	154.296	0.359039		6.84204e-07	1.35712e-06	6.72913e-07	2.45656e-07	524755	1.88477e-07
117	154.496	0.379181		6.73218e-07	1.33728e-06	6.640625E-07	2.55292e-07	563282	3.24158e-07
121	154.696	0.399323		6.64368e-07	1.31805e-06	6.53687e-07	2.65297e-07	601057	4.57848e-07
125	154.896	0.419464		6.57654e-07	1.29974e-06	6.4209e-07	2.75822e-07	637726.25	5.90004e-07
129	155.096	0.439606		6.53076e-07	1.28235e-06	6.29272e-07	2.87116e-07	673177.625	7.211e-07
133	155.296	0.459747		6.49414e-07	1.2674e-06	6.17981e-07	2.98566e-07	707941.75	8.51364e-07
137	155.496	0.479889		6.44836e-07	1.25458e-06	6.09741e-07	3.0943e-07	744155.25	9.80766e-07
141	155.696	0.500031		6.41174e-07	1.24451e-06	6.03333e-07	3.20587e-07	779819.125	1.10934e-06
145	155.896	0.520172		6.37207e-07	1.23627e-06	5.9906e-07	3.31457e-07	816331	1.23714e-06
149	156.096	0.540314		6.34155e-07	1.22986e-06	5.95703e-07	3.42604e-07	851925	1.36426e-06
153	156.296	0.560455		6.31104e-07	1.2262e-06	5.95093e-07	3.53667e-07	887959	1.49071e-06
157	156.496	0.580597		6.28357e-07	1.22406e-06	5.95703e-07	3.64784e-07	923895.125	1.61665e-06
161	156.696	0.600739		6.25305e-07	1.22406e-06	5.98755e-07	3.75645e-07	960713	1.74204e-06
165	156.896	0.62088		6.23779e-07	1.22681e-06	6.03027e-07	3.87254e-07	995254	1.8669e-06
169	157.096	0.641022		6.21033e-07	1.23077e-06	6.09741e-07	3.98077e-07	1032137.625	1.9914e-06
173	157.296	0.661163		6.18896e-07	1.23688e-06	6.17981e-07	4.09135e-07	1068146	2.11543e-06
177	157.496	0.681305		6.17371e-07	1.24542e-06	6.28052e-07	4.2058e-07	1103460.25	2.2391e-06
181	157.696	0.701447		6.15845e-07	1.25458e-06	6.38733e-07	4.31926e-07	1138850.375	2.36243e-06
185	157.896	0.721588		6.14014e-07	1.26617e-06	6.52161e-07	4.43027e-07	1175099.5	2.48535e-06
189	158.096	0.74173		6.14014e-07	1.27869e-06	6.64673e-07	4.55413e-07	1207952.375	2.60817e-06
193	158.296	0.761871		6.14624e-07	1.29211e-06	6.7749e-07	4.68546e-07	1240317.75	2.73109e-06
197	158.496	0.782013		6.1676e-07	1.30768e-06	6.90918e-07	4.82032e-07	1267194.5	2.85423e-06
201	158.696	0.802155		6.18591e-07	1.32141e-06	7.0282e-07	4.96111e-07	1296497.375	2.97776e-06
205	158.896	0.822296		6.21643e-07	1.33606e-06	7.14417e-07	5.1127e-07	1323024.125	3.10175e-06
209	159.096	0.842438		6.26221e-07	1.35162e-06	7.25403e-07	5.27456e-07	1345029.25	3.22653e-06
213	159.296	0.862579		6.31714e-07	1.36597e-06	7.34253e-07	5.45e-07	1365700.5	3.35228e-06
217	159.496	0.882721		6.38123e-07	1.37848e-06	7.40356e-07	5.63187e-07	1383070.375	3.47924e-06
221	159.696	0.902863		6.46362e-07	1.39038e-06	7.44019e-07	5.83478e-07	1396600.5	3.60757e-06
225	159.896	0.923004		6.55212e-07	1.39954e-06	7.44324e-07	6.04664e-07	1408477	3.73769e-06
229	160.096	0.943146		6.66199e-07	1.40564e-06	7.39441e-07	6.28424e-07	1415941.375	3.8698e-06
233	160.296	0.963287		6.78101e-07	1.40961e-06	7.31506e-07	6.53102e-07	1420342.125	4.00421e-06
237	160.496	0.983429		6.90918e-07	1.40961e-06	7.18689e-07	6.79574e-07	1423586.625	4.14108e-06
241	160.696	1.00357		7.04041e-07	1.40747e-06	7.0343e-07	7.06447e-07	1425227.5	4.28054e-06
245	160.896	1.02371		7.16858e-07	1.40259e-06	6.8573e-07	7.33528e-07	1427416	4.42263e-06
249	161.096	1.04385		7.29065e-07	1.39801e-06	6.68945e-07	7.61148e-07	1431979.875	4.56724e-06
253	161.296	1.064		7.39136e-07	1.39221e-06	6.53076e-07	7.86324e-07	1439306.375	4.71408e-06
257	161.496	1.08414		7.47681e-07	1.38885e-06	6.41174e-07	8.10702e-07	1450204.125	4.86279e-06
261	161.696	1.10428		7.55615e-07	1.38824e-06	6.32629e-07	8.34294e-07	1461227.875	5.01315e-06
265	161.896	1.12442		7.62329e-07	1.38977e-06	6.27441e-07	8.57062e-07	1474779.875	5.16496e-06
269	162.096	1.14456		7.67822e-07	1.39343e-06	6.2561e-07	8.78703e-07	1490461.125	5.31793e-06
273	162.296	1.1647		7.74231e-07	1.39923e-06	6.25e-07	9.01631e-07	1504138.75	5.47211e-06
277	162.496	1.18484		7.80334e-07	1.40564e-06	6.25305e-07	9.24218e-07	1517794.375	5.62759e-06
281	162.696	1.20499		7.87964e-07	1.41235e-06	6.2439e-07	9.49606e-07	1529434.5	5.78444e-06
285	162.896	1.22513		7.95593e-07	1.41937e-06	6.23779e-07	9.74582e-07	1539700.875	5.9428e-06
289	163.096	1.24527		8.03223e-07	1.4267e-06	6.23474e-07	1.00035e-06	1550532	6.10268e-06
293	163.296	1.26541		8.09937e-07	1.43341e-06	6.23474e-07	1.02503e-06	1562547.125	6.26396e-06
297	163.496	1.28555		8.1665e-07	1.44165e-06	6.25e-07	1.04997e-06	1574364.75	6.42661e-06
301	163.696	1.30569		8.22754e-07	1.4502e-06	6.27441e-07	1.07414e-06	1586795.375	6.59055e-06
305	163.896	1.32584		8.29468e-07	1.46179e-06	6.32324e-07	1.10012e-06	1598969.875	6.75574e-06
309	164.096	1.34598		8.36487e-07	1.47552e-06	6.39038e-07	1.12525e-06	1608172.25	6.92233e-06
313	164.296	1.36612		8.44727e-07	1.49139e-06	6.46667e-07	1.15413e-06	1617413.375	7.09047e-06
317	164.496	1.38626		8.54492e-07	1.51001e-06	6.55518e-07	1.18442e-06	1622142.875	7.26041e-06
321	164.696	1.4064		8.65784e-07	1.53046e-06	6.64673e-07	1.21751e-06	1624251	7.43243e-06
325	164.896	1.42654		8.77686e-07	1.55212e-06	6.74438e-07	1.25192e-06	1625173.875	7.60672e-06
329	165.096	1.44669		8.90198e-07	1.57318e-06	6.82983e-07	1.2877e-06	1624957.25	7.7835e-06
333	165.296	1.46683		9.0332e-07	1.59393e-06	6.90613e-07	1.32543e-06	1624324.375	7.96286e-06
337	165.496	1.48697		9.15833e-07	1.61255e-06	6.96716e-07	1.3614e-06	1623125.625	8.14483e-06
340	165.646	1.50208		9.24683e-07	1.62567e-06	7.00989e-07	1.38922e-06	1624752.5	8.28288e-06